File: data/ATR_plastics.csv
"wavenumber","sample","absorbance"
550.0952,"EPDM",0.2119556
550.0952,"Polystyrene",0.07463058
550.0952,"Polyethylene",0.000873196
550.0952,"Sample: Shopping bag",0.02364882
550.5773,"EPDM",0.2124079
550.5773,"Polystyrene",0.07455246
550.5773,"Polyethylene",0.000834192
550.5773,"Sample: Shopping bag",0.02382648
551.0594,"EPDM",0.2128818
551.0594,"Polystyrene",0.07450471
551.0594,"Polyethylene",0.000819447
551.0594,"Sample: Shopping bag",0.02387163
551.5415,"EPDM",0.2133267
551.5415,"Polystyrene",0.07449704
551.5415,"Polyethylene",0.000825491
551.5415,"Sample: Shopping bag",0.02391921
552.0236,"EPDM",0.2137241
552.0236,"Polystyrene",0.07452058
552.0236,"Polyethylene",0.000868397
552.0236,"Sample: Shopping bag",0.02396947
552.5057,"EPDM",0.2140997
552.5057,"Polystyrene",0.07455528
552.5057,"Polyethylene",0.000949017
552.5057,"Sample: Shopping bag",0.02402323
552.9879,"EPDM",0.2145173
552.9879,"Polystyrene",0.07458498
552.9879,"Polyethylene",0.001008869
552.9879,"Sample: Shopping bag",0.02408946
553.47,"EPDM",0.2150495
553.47,"Polystyrene",0.07458818
553.47,"Polyethylene",0.0010252
553.47,"Sample: Shopping bag",0.02413738
553.9521,"EPDM",0.2156501
553.9521,"Polystyrene",0.07456694
553.9521,"Polyethylene",0.001053734
553.9521,"Sample: Shopping bag",0.02419313
554.4342,"EPDM",0.2163207
554.4342,"Polystyrene",0.07452466
554.4342,"Polyethylene",0.001066902
554.4342,"Sample: Shopping bag",0.02424033
554.9163,"EPDM",0.2170318
554.9163,"Polystyrene",0.07447084
554.9163,"Polyethylene",0.001056188
554.9163,"Sample: Shopping bag",0.02426789
555.3984,"EPDM",0.2177349
555.3984,"Polystyrene",0.07441481
555.3984,"Polyethylene",0.001044501
555.3984,"Sample: Shopping bag",0.02427777
555.8806,"EPDM",0.2184014
555.8806,"Polystyrene",0.07436047
555.8806,"Polyethylene",0.001051706
555.8806,"Sample: Shopping bag",0.02427188
556.3627,"EPDM",0.2190562
556.3627,"Polystyrene",0.07430276
556.3627,"Polyethylene",0.001061679
556.3627,"Sample: Shopping bag",0.02424267
556.8448,"EPDM",0.2196827
556.8448,"Polystyrene",0.0742451
556.8448,"Polyethylene",0.001119621
556.8448,"Sample: Shopping bag",0.02422142
557.3269,"EPDM",0.2202756
557.3269,"Polystyrene",0.0741929
557.3269,"Polyethylene",0.001223141
557.3269,"Sample: Shopping bag",0.02422678
557.809,"EPDM",0.2208065
557.809,"Polystyrene",0.07415483
557.809,"Polyethylene",0.00135028
557.809,"Sample: Shopping bag",0.0242722
558.2911,"EPDM",0.221236
558.2911,"Polystyrene",0.0741393
558.2911,"Polyethylene",0.001465345
558.2911,"Sample: Shopping bag",0.02436322
558.7733,"EPDM",0.2216212
558.7733,"Polystyrene",0.07413711
558.7733,"Polyethylene",0.001464324
558.7733,"Sample: Shopping bag",0.02443497
559.2554,"EPDM",0.2218603
559.2554,"Polystyrene",0.07416032
559.2554,"Polyethylene",0.001438965
559.2554,"Sample: Shopping bag",0.02455257
559.7375,"EPDM",0.2219969
559.7375,"Polystyrene",0.07420024
559.7375,"Polyethylene",0.001366238
559.7375,"Sample: Shopping bag",0.02471445
560.2196,"EPDM",0.2221402
560.2196,"Polystyrene",0.07423479
560.2196,"Polyethylene",0.001246062
560.2196,"Sample: Shopping bag",0.02486027
560.7017,"EPDM",0.2223532
560.7017,"Polystyrene",0.07425515
560.7017,"Polyethylene",0.001116078
560.7017,"Sample: Shopping bag",0.02497118
561.1838,"EPDM",0.2226563
561.1838,"Polystyrene",0.07426071
561.1838,"Polyethylene",0.001017787
561.1838,"Sample: Shopping bag",0.0250296
561.666,"EPDM",0.2229459
561.666,"Polystyrene",0.07428109
561.666,"Polyethylene",0.000988206
561.666,"Sample: Shopping bag",0.02511967
562.1481,"EPDM",0.2232875
562.1481,"Polystyrene",0.07429599
562.1481,"Polyethylene",0.00100124
562.1481,"Sample: Shopping bag",0.02509523
562.6302,"EPDM",0.2236148
562.6302,"Polystyrene",0.07432249
562.6302,"Polyethylene",0.000993165
562.6302,"Sample: Shopping bag",0.02502063
563.1123,"EPDM",0.2238745
563.1123,"Polystyrene",0.07435767
563.1123,"Polyethylene",0.000975268
563.1123,"Sample: Shopping bag",0.0249352
563.5944,"EPDM",0.2240832
563.5944,"Polystyrene",0.07438361
563.5944,"Polyethylene",0.000923987
563.5944,"Sample: Shopping bag",0.0248624
564.0765,"EPDM",0.224298
564.0765,"Polystyrene",0.07437853
564.0765,"Polyethylene",0.00083123
564.0765,"Sample: Shopping bag",0.02482302
564.5587,"EPDM",0.2245866
564.5587,"Polystyrene",0.07432961
564.5587,"Polyethylene",0.000708671
564.5587,"Sample: Shopping bag",0.02482992
565.0408,"EPDM",0.2249863
565.0408,"Polystyrene",0.07423984
565.0408,"Polyethylene",0.000581324
565.0408,"Sample: Shopping bag",0.02488362
565.5229,"EPDM",0.225487
565.5229,"Polystyrene",0.07412762
565.5229,"Polyethylene",0.000478958
565.5229,"Sample: Shopping bag",0.02497218
566.005,"EPDM",0.2260382
566.005,"Polystyrene",0.07401957
566.005,"Polyethylene",0.000424525
566.005,"Sample: Shopping bag",0.02507601
566.4871,"EPDM",0.2265814
566.4871,"Polystyrene",0.07394053
566.4871,"Polyethylene",0.000427042
566.4871,"Sample: Shopping bag",0.02517413
566.9692,"EPDM",0.2270763
566.9692,"Polystyrene",0.07390393
566.9692,"Polyethylene",0.00048221
566.9692,"Sample: Shopping bag",0.02525094
567.4514,"EPDM",0.2275181
567.4514,"Polystyrene",0.07390468
567.4514,"Polyethylene",0.000573091
567.4514,"Sample: Shopping bag",0.0252976
567.9335,"EPDM",0.2279388
567.9335,"Polystyrene",0.07392276
567.9335,"Polyethylene",0.000678977
567.9335,"Sample: Shopping bag",0.02531591
568.4156,"EPDM",0.2283955
568.4156,"Polystyrene",0.07394201
568.4156,"Polyethylene",0.000738695
568.4156,"Sample: Shopping bag",0.02532752
568.8977,"EPDM",0.2288922
568.8977,"Polystyrene",0.07394005
568.8977,"Polyethylene",0.000828775
568.8977,"Sample: Shopping bag",0.02531433
569.3798,"EPDM",0.2294581
569.3798,"Polystyrene",0.07392486
569.3798,"Polyethylene",0.000853543
569.3798,"Sample: Shopping bag",0.02528072
569.8619,"EPDM",0.229952
569.8619,"Polystyrene",0.0739194
569.8619,"Polyethylene",0.000925694
569.8619,"Sample: Shopping bag",0.02528196
570.3441,"EPDM",0.2303643
570.3441,"Polystyrene",0.07393811
570.3441,"Polyethylene",0.000999053
570.3441,"Sample: Shopping bag",0.02529481
570.8262,"EPDM",0.2306875
570.8262,"Polystyrene",0.07398935
570.8262,"Polyethylene",0.00104518
570.8262,"Sample: Shopping bag",0.02530078
571.3083,"EPDM",0.2309022
571.3083,"Polystyrene",0.0740733
571.3083,"Polyethylene",0.001098642
571.3083,"Sample: Shopping bag",0.02530916
571.7904,"EPDM",0.2310507
571.7904,"Polystyrene",0.07417244
571.7904,"Polyethylene",0.001161455
571.7904,"Sample: Shopping bag",0.02531715
572.2725,"EPDM",0.2312031
572.2725,"Polystyrene",0.07426257
572.2725,"Polyethylene",0.001230932
572.2725,"Sample: Shopping bag",0.02532347
572.7546,"EPDM",0.2314499
572.7546,"Polystyrene",0.07431713
572.7546,"Polyethylene",0.001248218
572.7546,"Sample: Shopping bag",0.02530386
573.2368,"EPDM",0.2317253
573.2368,"Polystyrene",0.07433052
573.2368,"Polyethylene",0.001294582
573.2368,"Sample: Shopping bag",0.02529831
573.7189,"EPDM",0.2320503
573.7189,"Polystyrene",0.07430036
573.7189,"Polyethylene",0.001311368
573.7189,"Sample: Shopping bag",0.02528431
574.201,"EPDM",0.2323979
574.201,"Polystyrene",0.07423897
574.201,"Polyethylene",0.001290407
574.201,"Sample: Shopping bag",0.02526152
574.6831,"EPDM",0.2327415
574.6831,"Polystyrene",0.0741655
574.6831,"Polyethylene",0.001234038
574.6831,"Sample: Shopping bag",0.02523328
575.1652,"EPDM",0.2330672
575.1652,"Polystyrene",0.07409609
575.1652,"Polyethylene",0.001155067
575.1652,"Sample: Shopping bag",0.02520236
575.6473,"EPDM",0.2333857
575.6473,"Polystyrene",0.07404159
575.6473,"Polyethylene",0.001072302
575.6473,"Sample: Shopping bag",0.02517463
576.1295,"EPDM",0.233724
576.1295,"Polystyrene",0.07400767
576.1295,"Polyethylene",0.001007114
576.1295,"Sample: Shopping bag",0.0251565
576.6116,"EPDM",0.2341043
576.6116,"Polystyrene",0.07399778
576.6116,"Polyethylene",0.000974938
576.6116,"Sample: Shopping bag",0.0251547
577.0937,"EPDM",0.2345269
577.0937,"Polystyrene",0.07401179
577.0937,"Polyethylene",0.000980172
577.0937,"Sample: Shopping bag",0.02517252
577.5758,"EPDM",0.234979
577.5758,"Polystyrene",0.07404649
577.5758,"Polyethylene",0.00101488
577.5758,"Sample: Shopping bag",0.02521104
578.0579,"EPDM",0.2354426
578.0579,"Polystyrene",0.07409444
578.0579,"Polyethylene",0.001060996
578.0579,"Sample: Shopping bag",0.02526754
578.54,"EPDM",0.2359
578.54,"Polystyrene",0.07414567
578.54,"Polyethylene",0.001097114
578.54,"Sample: Shopping bag",0.02533764
579.0222,"EPDM",0.2363391
579.0222,"Polystyrene",0.07418928
579.0222,"Polyethylene",0.001105825
579.0222,"Sample: Shopping bag",0.02541546
579.5043,"EPDM",0.2367622
579.5043,"Polystyrene",0.07421686
579.5043,"Polyethylene",0.001079074
579.5043,"Sample: Shopping bag",0.02549614
579.9864,"EPDM",0.2371865
579.9864,"Polystyrene",0.07422853
579.9864,"Polyethylene",0.001021209
579.9864,"Sample: Shopping bag",0.02557787
580.4685,"EPDM",0.2376308
580.4685,"Polystyrene",0.07423323
580.4685,"Polyethylene",0.000945312
580.4685,"Sample: Shopping bag",0.02566184
580.9506,"EPDM",0.2381086
580.9506,"Polystyrene",0.07424467
580.9506,"Polyethylene",0.000870161
580.9506,"Sample: Shopping bag",0.02574953
581.4327,"EPDM",0.2386233
581.4327,"Polystyrene",0.07427566
581.4327,"Polyethylene",0.000814115
581.4327,"Sample: Shopping bag",0.02584184
581.9149,"EPDM",0.2391779
581.9149,"Polystyrene",0.07433382
581.9149,"Polyethylene",0.000790428
581.9149,"Sample: Shopping bag",0.02593863
582.397,"EPDM",0.2397659
582.397,"Polystyrene",0.07441857
582.397,"Polyethylene",0.000804137
582.397,"Sample: Shopping bag",0.02603637
582.8791,"EPDM",0.2403758
582.8791,"Polystyrene",0.07452273
582.8791,"Polyethylene",0.00085126
582.8791,"Sample: Shopping bag",0.0261298
583.3612,"EPDM",0.2409859
583.3612,"Polystyrene",0.07463621
583.3612,"Polyethylene",0.00091988
583.3612,"Sample: Shopping bag",0.02621238
583.8433,"EPDM",0.2415709
583.8433,"Polystyrene",0.07475156
583.8433,"Polyethylene",0.000995107
583.8433,"Sample: Shopping bag",0.02627945
584.3254,"EPDM",0.2421061
584.3254,"Polystyrene",0.07486645
584.3254,"Polyethylene",0.001062686
584.3254,"Sample: Shopping bag",0.02632929
584.8076,"EPDM",0.2425759
584.8076,"Polystyrene",0.07498264
584.8076,"Polyethylene",0.001113696
584.8076,"Sample: Shopping bag",0.02636347
585.2897,"EPDM",0.2429838
585.2897,"Polystyrene",0.07510166
585.2897,"Polyethylene",0.001146744
585.2897,"Sample: Shopping bag",0.02638652
585.7718,"EPDM",0.2433532
585.7718,"Polystyrene",0.07522225
585.7718,"Polyethylene",0.00116859
585.7718,"Sample: Shopping bag",0.02640406
586.2539,"EPDM",0.2437179
586.2539,"Polystyrene",0.07533785
586.2539,"Polyethylene",0.001191371
586.2539,"Sample: Shopping bag",0.02641961
586.736,"EPDM",0.2441084
586.736,"Polystyrene",0.07543812
586.736,"Polyethylene",0.001227058
586.736,"Sample: Shopping bag",0.02643267
587.2181,"EPDM",0.2447342
587.2181,"Polystyrene",0.07551049
587.2181,"Polyethylene",0.00132781
587.2181,"Sample: Shopping bag",0.02647911
587.7003,"EPDM",0.2453762
587.7003,"Polystyrene",0.07556868
587.7003,"Polyethylene",0.001445653
587.7003,"Sample: Shopping bag",0.0265103
588.1824,"EPDM",0.2460007
588.1824,"Polystyrene",0.07561707
588.1824,"Polyethylene",0.001569361
588.1824,"Sample: Shopping bag",0.02652117
588.6645,"EPDM",0.2465716
588.6645,"Polystyrene",0.07565772
588.6645,"Polyethylene",0.001682344
588.6645,"Sample: Shopping bag",0.02650799
589.1466,"EPDM",0.2470704
589.1466,"Polystyrene",0.07569227
589.1466,"Polyethylene",0.001767553
589.1466,"Sample: Shopping bag",0.02647221
589.6287,"EPDM",0.2475049
589.6287,"Polystyrene",0.0757216
589.6287,"Polyethylene",0.001813859
589.6287,"Sample: Shopping bag",0.02642134
590.1108,"EPDM",0.2479072
590.1108,"Polystyrene",0.07574893
590.1108,"Polyethylene",0.001820359
590.1108,"Sample: Shopping bag",0.02636822
590.593,"EPDM",0.2483172
590.593,"Polystyrene",0.07577982
590.593,"Polyethylene",0.001797824
590.593,"Sample: Shopping bag",0.02632785
591.0751,"EPDM",0.248768
591.0751,"Polystyrene",0.07582325
591.0751,"Polyethylene",0.001765752
591.0751,"Sample: Shopping bag",0.02631341
591.5572,"EPDM",0.2492707
591.5572,"Polystyrene",0.07588864
591.5572,"Polyethylene",0.001746411
591.5572,"Sample: Shopping bag",0.02633132
592.0393,"EPDM",0.2498136
592.0393,"Polystyrene",0.07598245
592.0393,"Polyethylene",0.001756999
592.0393,"Sample: Shopping bag",0.02637902
592.5214,"EPDM",0.2503717
592.5214,"Polystyrene",0.07610588
592.5214,"Polyethylene",0.001804537
592.5214,"Sample: Shopping bag",0.02644602
593.0035,"EPDM",0.2509225
593.0035,"Polystyrene",0.07625341
593.0035,"Polyethylene",0.001883247
593.0035,"Sample: Shopping bag",0.02651935
593.4857,"EPDM",0.2514572
593.4857,"Polystyrene",0.07641386
593.4857,"Polyethylene",0.001975973
593.4857,"Sample: Shopping bag",0.02658827
593.9678,"EPDM",0.2519833
593.9678,"Polystyrene",0.07657407
593.9678,"Polyethylene",0.00206057
593.9678,"Sample: Shopping bag",0.0266493
594.4499,"EPDM",0.2525177
594.4499,"Polystyrene",0.0767227
594.4499,"Polyethylene",0.002116715
594.4499,"Sample: Shopping bag",0.02670641
594.932,"EPDM",0.2530745
594.932,"Polystyrene",0.07685436
594.932,"Polyethylene",0.002131645
594.932,"Sample: Shopping bag",0.02676901
595.4141,"EPDM",0.2536553
595.4141,"Polystyrene",0.07697141
595.4141,"Polyethylene",0.002103785
595.4141,"Sample: Shopping bag",0.02684598
595.8962,"EPDM",0.2542459
595.8962,"Polystyrene",0.07708298
595.8962,"Polyethylene",0.002040809
595.8962,"Sample: Shopping bag",0.02694083
596.3784,"EPDM",0.2548205
596.3784,"Polystyrene",0.07720155
596.3784,"Polyethylene",0.001957043
596.3784,"Sample: Shopping bag",0.02704939
596.8605,"EPDM",0.2553537
596.8605,"Polystyrene",0.07733911
596.8605,"Polyethylene",0.001867761
596.8605,"Sample: Shopping bag",0.02716182
597.3426,"EPDM",0.2558284
597.3426,"Polystyrene",0.07750237
597.3426,"Polyethylene",0.001785129
597.3426,"Sample: Shopping bag",0.02726671
597.8247,"EPDM",0.2562392
597.8247,"Polystyrene",0.07769074
597.8247,"Polyethylene",0.001717077
597.8247,"Sample: Shopping bag",0.02735729
598.3068,"EPDM",0.2565909
598.3068,"Polystyrene",0.07789605
598.3068,"Polyethylene",0.001666714
598.3068,"Sample: Shopping bag",0.02743364
598.7889,"EPDM",0.256892
598.7889,"Polystyrene",0.07810558
598.7889,"Polyethylene",0.001634551
598.7889,"Sample: Shopping bag",0.02750357
599.2711,"EPDM",0.2571509
599.2711,"Polystyrene",0.07830556
599.2711,"Polyethylene",0.001620507
599.2711,"Sample: Shopping bag",0.02757767
599.7532,"EPDM",0.2573747
599.7532,"Polystyrene",0.07848483
599.7532,"Polyethylene",0.001623823
599.7532,"Sample: Shopping bag",0.02766489
600.2353,"EPDM",0.2575707
600.2353,"Polystyrene",0.07863799
600.2353,"Polyethylene",0.001643964
600.2353,"Sample: Shopping bag",0.02776798
600.7174,"EPDM",0.2577517
600.7174,"Polystyrene",0.07876486
600.7174,"Polyethylene",0.001678454
600.7174,"Sample: Shopping bag",0.02788278
601.1995,"EPDM",0.2579352
601.1995,"Polystyrene",0.07886892
601.1995,"Polyethylene",0.001722872
601.1995,"Sample: Shopping bag",0.0280002
601.6816,"EPDM",0.2581384
601.6816,"Polystyrene",0.07895363
601.6816,"Polyethylene",0.001770575
601.6816,"Sample: Shopping bag",0.02811045
602.1638,"EPDM",0.2583706
602.1638,"Polystyrene",0.0790199
602.1638,"Polyethylene",0.001814776
602.1638,"Sample: Shopping bag",0.02820664
602.6459,"EPDM",0.2586256
602.6459,"Polystyrene",0.07906443
602.6459,"Polyethylene",0.001850065
602.6459,"Sample: Shopping bag",0.02828672
603.128,"EPDM",0.2588811
603.128,"Polystyrene",0.0790812
603.128,"Polyethylene",0.001874748
603.128,"Sample: Shopping bag",0.02835319
603.6101,"EPDM",0.2591051
603.6101,"Polystyrene",0.07906428
603.6101,"Polyethylene",0.001890991
603.6101,"Sample: Shopping bag",0.02841028
604.0922,"EPDM",0.2592679
604.0922,"Polystyrene",0.0790112
604.0922,"Polyethylene",0.001903761
604.0922,"Sample: Shopping bag",0.02846204
604.5743,"EPDM",0.2593555
604.5743,"Polystyrene",0.07892559
604.5743,"Polyethylene",0.001918606
604.5743,"Sample: Shopping bag",0.02851158
605.0565,"EPDM",0.2593766
605.0565,"Polystyrene",0.07881736
605.0565,"Polyethylene",0.00193892
605.0565,"Sample: Shopping bag",0.02856134
605.5386,"EPDM",0.2593585
605.5386,"Polystyrene",0.07870011
605.5386,"Polyethylene",0.001964191
605.5386,"Sample: Shopping bag",0.02861482
606.0207,"EPDM",0.259336
606.0207,"Polystyrene",0.07858622
606.0207,"Polyethylene",0.001990254
606.0207,"Sample: Shopping bag",0.02867582
606.5028,"EPDM",0.2593376
606.5028,"Polystyrene",0.07848351
606.5028,"Polyethylene",0.002009893
606.5028,"Sample: Shopping bag",0.02874845
606.9849,"EPDM",0.2593756
606.9849,"Polystyrene",0.07839272
606.9849,"Polyethylene",0.002015589
606.9849,"Sample: Shopping bag",0.02883322
607.467,"EPDM",0.2594433
607.467,"Polystyrene",0.07830714
607.467,"Polyethylene",0.002001558
607.467,"Sample: Shopping bag",0.02892563
607.9492,"EPDM",0.259523
607.9492,"Polystyrene",0.07821746
607.9492,"Polyethylene",0.00196571
607.9492,"Sample: Shopping bag",0.02901504
608.4313,"EPDM",0.2595974
608.4313,"Polystyrene",0.07811676
608.4313,"Polyethylene",0.001909968
608.4313,"Sample: Shopping bag",0.02908928
608.9134,"EPDM",0.2596589
608.9134,"Polystyrene",0.07800462
608.9134,"Polyethylene",0.001839591
608.9134,"Sample: Shopping bag",0.02913878
609.3955,"EPDM",0.2597121
609.3955,"Polystyrene",0.07788912
609.3955,"Polyethylene",0.001763299
609.3955,"Sample: Shopping bag",0.02916214
609.8776,"EPDM",0.2597697
609.8776,"Polystyrene",0.07778484
609.8776,"Polyethylene",0.00169028
609.8776,"Sample: Shopping bag",0.02916846
610.3597,"EPDM",0.2598434
610.3597,"Polystyrene",0.07770757
610.3597,"Polyethylene",0.001629899
610.3597,"Sample: Shopping bag",0.02917492
610.8419,"EPDM",0.2599376
610.8419,"Polystyrene",0.07766835
610.8419,"Polyethylene",0.00159029
610.8419,"Sample: Shopping bag",0.02919934
611.324,"EPDM",0.2600456
611.324,"Polystyrene",0.07766816
611.324,"Polyethylene",0.001576373
611.324,"Sample: Shopping bag",0.02925278
611.8061,"EPDM",0.2601528
611.8061,"Polystyrene",0.07769728
611.8061,"Polyethylene",0.001589263
611.8061,"Sample: Shopping bag",0.0293336
612.2882,"EPDM",0.2602439
612.2882,"Polystyrene",0.07773838
612.2882,"Polyethylene",0.001625991
612.2882,"Sample: Shopping bag",0.02942783
612.7703,"EPDM",0.260307
612.7703,"Polystyrene",0.07777303
612.7703,"Polyethylene",0.001680078
612.7703,"Sample: Shopping bag",0.02951478
613.2524,"EPDM",0.2603352
613.2524,"Polystyrene",0.07778941
613.2524,"Polyethylene",0.001743532
613.2524,"Sample: Shopping bag",0.02957665
613.7346,"EPDM",0.260325
613.7346,"Polystyrene",0.07778705
613.7346,"Polyethylene",0.001808614
613.7346,"Sample: Shopping bag",0.02960609
614.2167,"EPDM",0.2602745
614.2167,"Polystyrene",0.07777894
614.2167,"Polyethylene",0.001870378
614.2167,"Sample: Shopping bag",0.02961074
614.6988,"EPDM",0.2601846
614.6988,"Polystyrene",0.07778721
614.6988,"Polyethylene",0.001927791
614.6988,"Sample: Shopping bag",0.02960929
615.1809,"EPDM",0.2600632
615.1809,"Polystyrene",0.0778354
615.1809,"Polyethylene",0.001982458
615.1809,"Sample: Shopping bag",0.02962364
615.663,"EPDM",0.2599311
615.663,"Polystyrene",0.07794012
615.663,"Polyethylene",0.002037901
615.663,"Sample: Shopping bag",0.02966874
616.1451,"EPDM",0.2598244
616.1451,"Polystyrene",0.07810327
616.1451,"Polyethylene",0.002096276
616.1451,"Sample: Shopping bag",0.02974613
616.6273,"EPDM",0.2597909
616.6273,"Polystyrene",0.07831118
616.6273,"Polyethylene",0.002156813
616.6273,"Sample: Shopping bag",0.02984425
617.1094,"EPDM",0.2598763
617.1094,"Polystyrene",0.07853612
617.1094,"Polyethylene",0.002215381
617.1094,"Sample: Shopping bag",0.02994234
617.5915,"EPDM",0.2601075
617.5915,"Polystyrene",0.07874535
617.5915,"Polyethylene",0.002265443
617.5915,"Sample: Shopping bag",0.03001936
618.0736,"EPDM",0.2604826
618.0736,"Polystyrene",0.07891034
618.0736,"Polyethylene",0.002299365
618.0736,"Sample: Shopping bag",0.03006176
618.5557,"EPDM",0.2609675
618.5557,"Polystyrene",0.07901549
618.5557,"Polyethylene",0.002311779
618.5557,"Sample: Shopping bag",0.0300664
619.0378,"EPDM",0.2615085
619.0378,"Polystyrene",0.07906315
619.0378,"Polyethylene",0.00229935
619.0378,"Sample: Shopping bag",0.03004066
619.52,"EPDM",0.2620526
619.52,"Polystyrene",0.07907214
619.52,"Polyethylene",0.002261918
619.52,"Sample: Shopping bag",0.02999691
620.0021,"EPDM",0.2625669
620.0021,"Polystyrene",0.07907272
620.0021,"Polyethylene",0.002201875
620.0021,"Sample: Shopping bag",0.02994908
620.4842,"EPDM",0.2630489
620.4842,"Polystyrene",0.07909655
620.4842,"Polyethylene",0.002123114
620.4842,"Sample: Shopping bag",0.02990846
620.9663,"EPDM",0.263522
620.9663,"Polystyrene",0.07916941
620.9663,"Polyethylene",0.002031569
620.9663,"Sample: Shopping bag",0.02988384
621.4484,"EPDM",0.2640208
621.4484,"Polystyrene",0.07930402
621.4484,"Polyethylene",0.001935255
621.4484,"Sample: Shopping bag",0.02988042
621.9305,"EPDM",0.2645739
621.9305,"Polystyrene",0.07949957
621.9305,"Polyethylene",0.00184444
621.9305,"Sample: Shopping bag",0.02990291
622.4127,"EPDM",0.2651891
622.4127,"Polystyrene",0.07974414
622.4127,"Polyethylene",0.00177142
622.4127,"Sample: Shopping bag",0.02995268
622.8948,"EPDM",0.2658529
622.8948,"Polystyrene",0.08002026
622.8948,"Polyethylene",0.001728248
622.8948,"Sample: Shopping bag",0.03002774
623.3769,"EPDM",0.2665373
623.3769,"Polystyrene",0.08031094
623.3769,"Polyethylene",0.001723944
623.3769,"Sample: Shopping bag",0.03012071
623.859,"EPDM",0.2672158
623.859,"Polystyrene",0.08060358
623.859,"Polyethylene",0.001761691
623.859,"Sample: Shopping bag",0.0302204
624.3411,"EPDM",0.2678729
624.3411,"Polystyrene",0.08089009
624.3411,"Polyethylene",0.001836324
624.3411,"Sample: Shopping bag",0.03031273
624.8232,"EPDM",0.2685083
624.8232,"Polystyrene",0.08116773
624.8232,"Polyethylene",0.001935781
624.8232,"Sample: Shopping bag",0.03038655
625.3054,"EPDM",0.2691305
625.3054,"Polystyrene",0.08143651
625.3054,"Polyethylene",0.002042993
625.3054,"Sample: Shopping bag",0.03043611
625.7875,"EPDM",0.2697484
625.7875,"Polystyrene",0.08170006
625.7875,"Polyethylene",0.002141005
625.7875,"Sample: Shopping bag",0.03046343
626.2696,"EPDM",0.2703612
626.2696,"Polystyrene",0.08196708
626.2696,"Polyethylene",0.002217356
626.2696,"Sample: Shopping bag",0.03047672
626.7517,"EPDM",0.2709599
626.7517,"Polystyrene",0.08225287
626.7517,"Polyethylene",0.002266564
626.7517,"Sample: Shopping bag",0.03048688
627.2338,"EPDM",0.2715299
627.2338,"Polystyrene",0.08258005
627.2338,"Polyethylene",0.002290894
627.2338,"Sample: Shopping bag",0.03050276
627.7159,"EPDM",0.272063
627.7159,"Polystyrene",0.08297495
627.7159,"Polyethylene",0.002298156
627.7159,"Sample: Shopping bag",0.03052908
628.1981,"EPDM",0.2725613
628.1981,"Polystyrene",0.0834605
628.1981,"Polyethylene",0.002297949
628.1981,"Sample: Shopping bag",0.03056612
628.6802,"EPDM",0.2730368
628.6802,"Polystyrene",0.08404539
628.6802,"Polyethylene",0.00229879
628.6802,"Sample: Shopping bag",0.03061119
629.1623,"EPDM",0.2735037
629.1623,"Polystyrene",0.08471473
629.1623,"Polyethylene",0.002305384
629.1623,"Sample: Shopping bag",0.03066188
629.6444,"EPDM",0.2739695
629.6444,"Polystyrene",0.08542541
629.6444,"Polyethylene",0.002318353
629.6444,"Sample: Shopping bag",0.03071822
630.1265,"EPDM",0.2744287
630.1265,"Polystyrene",0.08610858
630.1265,"Polyethylene",0.002335632
630.1265,"Sample: Shopping bag",0.03078169
630.6086,"EPDM",0.2748649
630.6086,"Polystyrene",0.08668074
630.6086,"Polyethylene",0.002353213
630.6086,"Sample: Shopping bag",0.03085414
631.0908,"EPDM",0.2752579
631.0908,"Polystyrene",0.08706249
631.0908,"Polyethylene",0.002367389
631.0908,"Sample: Shopping bag",0.03093502
631.5729,"EPDM",0.2755957
631.5729,"Polystyrene",0.08719672
631.5729,"Polyethylene",0.00237535
631.5729,"Sample: Shopping bag",0.03102137
632.055,"EPDM",0.2758811
632.055,"Polystyrene",0.08706365
632.055,"Polyethylene",0.002375669
632.055,"Sample: Shopping bag",0.03110791
632.5371,"EPDM",0.2761306
632.5371,"Polystyrene",0.08668482
632.5371,"Polyethylene",0.002368622
632.5371,"Sample: Shopping bag",0.03119007
633.0192,"EPDM",0.2763685
633.0192,"Polystyrene",0.08611815
633.0192,"Polyethylene",0.002356833
633.0192,"Sample: Shopping bag",0.03126537
633.5013,"EPDM",0.2766168
633.5013,"Polystyrene",0.08544283
633.5013,"Polyethylene",0.002344901
633.5013,"Sample: Shopping bag",0.03133518
633.9835,"EPDM",0.2768866
633.9835,"Polystyrene",0.08474165
633.9835,"Polyethylene",0.002340185
633.9835,"Sample: Shopping bag",0.03140248
634.4656,"EPDM",0.277178
634.4656,"Polystyrene",0.08408476
634.4656,"Polyethylene",0.002350726
634.4656,"Sample: Shopping bag",0.03146951
634.9477,"EPDM",0.2774849
634.9477,"Polystyrene",0.08352061
634.9477,"Polyethylene",0.002383381
634.9477,"Sample: Shopping bag",0.03153481
635.4298,"EPDM",0.2778026
635.4298,"Polystyrene",0.08307355
635.4298,"Polyethylene",0.002441369
635.4298,"Sample: Shopping bag",0.03159387
635.9119,"EPDM",0.2781326
635.9119,"Polystyrene",0.0827475
635.9119,"Polyethylene",0.002522088
635.9119,"Sample: Shopping bag",0.03164027
636.394,"EPDM",0.2784822
636.394,"Polystyrene",0.08253268
636.394,"Polyethylene",0.002616492
636.394,"Sample: Shopping bag",0.03167036
636.8762,"EPDM",0.2788593
636.8762,"Polystyrene",0.08241264
636.8762,"Polyethylene",0.002711539
636.8762,"Sample: Shopping bag",0.03168612
637.3583,"EPDM",0.2792662
637.3583,"Polystyrene",0.08236875
637.3583,"Polyethylene",0.002792684
637.3583,"Sample: Shopping bag",0.03169616
637.8404,"EPDM",0.2796963
637.8404,"Polystyrene",0.08238244
637.8404,"Polyethylene",0.00284905
637.8404,"Sample: Shopping bag",0.03171286
638.3225,"EPDM",0.2801372
638.3225,"Polystyrene",0.08243617
638.3225,"Polyethylene",0.002875297
638.3225,"Sample: Shopping bag",0.0317471
638.8046,"EPDM",0.2805766
638.8046,"Polystyrene",0.08251347
638.8046,"Polyethylene",0.002873739
638.8046,"Sample: Shopping bag",0.03180295
639.2867,"EPDM",0.2810104
639.2867,"Polystyrene",0.08260129
639.2867,"Polyethylene",0.002851791
639.2867,"Sample: Shopping bag",0.03187613
639.7689,"EPDM",0.2814439
639.7689,"Polystyrene",0.08269022
639.7689,"Polyethylene",0.002818545
639.7689,"Sample: Shopping bag",0.0319552
640.251,"EPDM",0.2818881
640.251,"Polystyrene",0.08277673
640.251,"Polyethylene",0.002782172
640.251,"Sample: Shopping bag",0.03202787
640.7331,"EPDM",0.2823509
640.7331,"Polystyrene",0.08286214
640.7331,"Polyethylene",0.002746475
640.7331,"Sample: Shopping bag",0.0320864
641.2152,"EPDM",0.282832
641.2152,"Polystyrene",0.08295143
641.2152,"Polyethylene",0.002711631
641.2152,"Sample: Shopping bag",0.03213286
641.6973,"EPDM",0.2833201
641.6973,"Polystyrene",0.08304954
641.6973,"Polyethylene",0.002676116
641.6973,"Sample: Shopping bag",0.03217747
642.1794,"EPDM",0.2837996
642.1794,"Polystyrene",0.08315988
642.1794,"Polyethylene",0.002638859
642.1794,"Sample: Shopping bag",0.03223499
642.6616,"EPDM",0.2842603
642.6616,"Polystyrene",0.08328198
642.6616,"Polyethylene",0.002601851
642.6616,"Sample: Shopping bag",0.03231788
643.1437,"EPDM",0.2847049
643.1437,"Polystyrene",0.08341295
643.1437,"Polyethylene",0.002570504
643.1437,"Sample: Shopping bag",0.03243154
643.6258,"EPDM",0.2851507
643.6258,"Polystyrene",0.08354867
643.6258,"Polyethylene",0.002551773
643.6258,"Sample: Shopping bag",0.03257164
644.1079,"EPDM",0.2856201
644.1079,"Polystyrene",0.08368637
644.1079,"Polyethylene",0.002552046
644.1079,"Sample: Shopping bag",0.03272751
644.59,"EPDM",0.28613
644.59,"Polystyrene",0.08382541
644.59,"Polyethylene",0.002573972
644.59,"Sample: Shopping bag",0.03288619
645.0721,"EPDM",0.2866811
645.0721,"Polystyrene",0.08396766
645.0721,"Polyethylene",0.002615623
645.0721,"Sample: Shopping bag",0.03303837
645.5543,"EPDM",0.287256
645.5543,"Polystyrene",0.08411533
645.5543,"Polyethylene",0.002670581
645.5543,"Sample: Shopping bag",0.0331801
646.0364,"EPDM",0.2878278
646.0364,"Polystyrene",0.0842694
646.0364,"Polyethylene",0.002730143
646.0364,"Sample: Shopping bag",0.03331285
646.5185,"EPDM",0.2883747
646.5185,"Polystyrene",0.08442879
646.5185,"Polyethylene",0.002785767
646.5185,"Sample: Shopping bag",0.03344036
647.0006,"EPDM",0.2888939
647.0006,"Polystyrene",0.08458999
647.0006,"Polyethylene",0.00283158
647.0006,"Sample: Shopping bag",0.03356519
647.4827,"EPDM",0.2894074
647.4827,"Polystyrene",0.08474892
647.4827,"Polyethylene",0.002865155
647.4827,"Sample: Shopping bag",0.03368761
647.9648,"EPDM",0.2899554
647.9648,"Polystyrene",0.08490187
647.9648,"Polyethylene",0.002887692
647.9648,"Sample: Shopping bag",0.03380585
648.447,"EPDM",0.2905811
648.447,"Polystyrene",0.08504733
648.447,"Polyethylene",0.002901963
648.447,"Sample: Shopping bag",0.03391849
648.9291,"EPDM",0.2913166
648.9291,"Polystyrene",0.08518578
648.9291,"Polyethylene",0.002911201
648.9291,"Sample: Shopping bag",0.03402662
649.4112,"EPDM",0.2921697
649.4112,"Polystyrene",0.08531879
649.4112,"Polyethylene",0.002917716
649.4112,"Sample: Shopping bag",0.03413405
649.8933,"EPDM",0.2931261
649.8933,"Polystyrene",0.08544853
649.8933,"Polyethylene",0.002921764
649.8933,"Sample: Shopping bag",0.03424596
650.3754,"EPDM",0.2941581
650.3754,"Polystyrene",0.08557631
650.3754,"Polyethylene",0.002922317
650.3754,"Sample: Shopping bag",0.03436496
650.8575,"EPDM",0.2952367
650.8575,"Polystyrene",0.08570343
650.8575,"Polyethylene",0.002917671
650.8575,"Sample: Shopping bag",0.03449019
651.3397,"EPDM",0.2963403
651.3397,"Polystyrene",0.08583146
651.3397,"Polyethylene",0.002906355
651.3397,"Sample: Shopping bag",0.03461658
651.8218,"EPDM",0.2974579
651.8218,"Polystyrene",0.08596309
651.8218,"Polyethylene",0.002888594
651.8218,"Sample: Shopping bag",0.03473821
652.3039,"EPDM",0.2985862
652.3039,"Polystyrene",0.08610225
652.3039,"Polyethylene",0.002866797
652.3039,"Sample: Shopping bag",0.03485126
652.786,"EPDM",0.2997285
652.786,"Polystyrene",0.08625317
652.786,"Polyethylene",0.002845231
652.786,"Sample: Shopping bag",0.03495793
653.2681,"EPDM",0.3008941
653.2681,"Polystyrene",0.08641826
653.2681,"Polyethylene",0.002830205
653.2681,"Sample: Shopping bag",0.03506558
653.7502,"EPDM",0.3021011
653.7502,"Polystyrene",0.08659625
653.7502,"Polyethylene",0.002828442
653.7502,"Sample: Shopping bag",0.03518388
654.2324,"EPDM",0.3033787
654.2324,"Polystyrene",0.08678202
654.2324,"Polyethylene",0.002845809
654.2324,"Sample: Shopping bag",0.03531963
654.7145,"EPDM",0.3047643
654.7145,"Polystyrene",0.08696721
654.7145,"Polyethylene",0.002885829
654.7145,"Sample: Shopping bag",0.03547302
655.1966,"EPDM",0.3062951
655.1966,"Polystyrene",0.08714295
655.1966,"Polyethylene",0.002948477
655.1966,"Sample: Shopping bag",0.03563642
655.6787,"EPDM",0.3079945
655.6787,"Polystyrene",0.08730317
655.6787,"Polyethylene",0.003029868
655.6787,"Sample: Shopping bag",0.03579741
656.1608,"EPDM",0.3098645
656.1608,"Polystyrene",0.08744718
656.1608,"Polyethylene",0.003122554
656.1608,"Sample: Shopping bag",0.03594474
656.6429,"EPDM",0.3118848
656.6429,"Polystyrene",0.08758074
656.6429,"Polyethylene",0.003217492
656.6429,"Sample: Shopping bag",0.03607365
657.1251,"EPDM",0.3140267
657.1251,"Polystyrene",0.08771446
657.1251,"Polyethylene",0.003305935
657.1251,"Sample: Shopping bag",0.03618908
657.6072,"EPDM",0.3162723
657.6072,"Polystyrene",0.08786135
657.6072,"Polyethylene",0.003381189
657.6072,"Sample: Shopping bag",0.03630401
658.0893,"EPDM",0.3186314
658.0893,"Polystyrene",0.08803311
658.0893,"Polyethylene",0.00344055
658.0893,"Sample: Shopping bag",0.0364348
658.5714,"EPDM",0.3211465
658.5714,"Polystyrene",0.08823741
658.5714,"Polyethylene",0.003485316
658.5714,"Sample: Shopping bag",0.03659547
659.0535,"EPDM",0.3238823
659.0535,"Polystyrene",0.08847641
659.0535,"Polyethylene",0.00351938
659.0535,"Sample: Shopping bag",0.03679257
659.5356,"EPDM",0.3269041
659.5356,"Polystyrene",0.08874724
659.5356,"Polyethylene",0.003549142
659.5356,"Sample: Shopping bag",0.03702504
660.0178,"EPDM",0.3302586
660.0178,"Polystyrene",0.08904403
660.0178,"Polyethylene",0.003580212
660.0178,"Sample: Shopping bag",0.03728604
660.4999,"EPDM",0.3339647
660.4999,"Polystyrene",0.0893599
660.4999,"Polyethylene",0.003616929
660.4999,"Sample: Shopping bag",0.03756808
660.982,"EPDM",0.3380207
660.982,"Polystyrene",0.08968829
660.982,"Polyethylene",0.003661656
660.982,"Sample: Shopping bag",0.03786616
661.4641,"EPDM",0.3424196
661.4641,"Polystyrene",0.09002458
661.4641,"Polyethylene",0.003714147
661.4641,"Sample: Shopping bag",0.03817954
661.9462,"EPDM",0.3471547
661.9462,"Polystyrene",0.09036528
661.9462,"Polyethylene",0.003773183
661.9462,"Sample: Shopping bag",0.03851025
662.4283,"EPDM",0.3522061
662.4283,"Polystyrene",0.09070755
662.4283,"Polyethylene",0.003836935
662.4283,"Sample: Shopping bag",0.03886044
662.9105,"EPDM",0.3575055
662.9105,"Polystyrene",0.0910481
662.9105,"Polyethylene",0.003904196
662.9105,"Sample: Shopping bag",0.03922953
663.3926,"EPDM",0.3628906
663.3926,"Polystyrene",0.09138349
663.3926,"Polyethylene",0.003974727
663.3926,"Sample: Shopping bag",0.03961344
663.8747,"EPDM",0.3680775
663.8747,"Polystyrene",0.09171003
663.8747,"Polyethylene",0.004049456
663.8747,"Sample: Shopping bag",0.04000561
664.3568,"EPDM",0.3726667
664.3568,"Polystyrene",0.09202528
664.3568,"Polyethylene",0.004130041
664.3568,"Sample: Shopping bag",0.04039919
664.8389,"EPDM",0.376195
664.8389,"Polystyrene",0.09232939
664.8389,"Polyethylene",0.00421842
664.8389,"Sample: Shopping bag",0.04078888
665.321,"EPDM",0.3782192
665.321,"Polystyrene",0.09262548
665.321,"Polyethylene",0.004315646
665.321,"Sample: Shopping bag",0.04117038
665.8032,"EPDM",0.3784239
665.8032,"Polystyrene",0.09292018
665.8032,"Polyethylene",0.004421412
665.8032,"Sample: Shopping bag",0.04153933
666.2853,"EPDM",0.3767424
666.2853,"Polystyrene",0.09322206
666.2853,"Polyethylene",0.004533233
666.2853,"Sample: Shopping bag",0.0418887
666.7674,"EPDM",0.3734765
666.7674,"Polystyrene",0.09353971
666.7674,"Polyethylene",0.004646132
666.7674,"Sample: Shopping bag",0.04220785
667.2495,"EPDM",0.3693634
667.2495,"Polystyrene",0.09387928
667.2495,"Polyethylene",0.004752993
667.2495,"Sample: Shopping bag",0.04248321
667.7316,"EPDM",0.3654699
667.7316,"Polystyrene",0.09424213
667.7316,"Polyethylene",0.004845778
667.7316,"Sample: Shopping bag",0.04270094
668.2137,"EPDM",0.3627957
668.2137,"Polystyrene",0.09462453
668.2137,"Polyethylene",0.004915914
668.2137,"Sample: Shopping bag",0.04285073
668.6959,"EPDM",0.3617235
668.6959,"Polystyrene",0.09501863
668.6959,"Polyethylene",0.004956832
668.6959,"Sample: Shopping bag",0.04292828
669.178,"EPDM",0.3618075
669.178,"Polystyrene",0.09541491
669.178,"Polyethylene",0.004964491
669.178,"Sample: Shopping bag",0.04293604
669.6601,"EPDM",0.3621384
669.6601,"Polystyrene",0.09580576
669.6601,"Polyethylene",0.004938708
669.6601,"Sample: Shopping bag",0.04288168
670.1422,"EPDM",0.361881
670.1422,"Polystyrene",0.0961882
670.1422,"Polyethylene",0.004882979
670.1422,"Sample: Shopping bag",0.04277552
670.6243,"EPDM",0.3605588
670.6243,"Polystyrene",0.09656569
670.6243,"Polyethylene",0.00480421
670.6243,"Sample: Shopping bag",0.0426283
671.1064,"EPDM",0.358069
671.1064,"Polystyrene",0.09694723
671.1064,"Polyethylene",0.004711261
671.1064,"Sample: Shopping bag",0.04245007
671.5886,"EPDM",0.3545821
671.5886,"Polystyrene",0.09734479
671.5886,"Polyethylene",0.004613264
671.5886,"Sample: Shopping bag",0.04225026
672.0707,"EPDM",0.350421
672.0707,"Polystyrene",0.09777046
672.0707,"Polyethylene",0.004518094
672.0707,"Sample: Shopping bag",0.04203918
672.5528,"EPDM",0.3459532
672.5528,"Polystyrene",0.09823285
672.5528,"Polyethylene",0.004431202
672.5528,"Sample: Shopping bag",0.04182776
673.0349,"EPDM",0.3415063
673.0349,"Polystyrene",0.09873626
673.0349,"Polyethylene",0.004354835
673.0349,"Sample: Shopping bag",0.0416268
673.517,"EPDM",0.3373135
673.517,"Polystyrene",0.09928002
673.517,"Polyethylene",0.004288333
673.517,"Sample: Shopping bag",0.04144497
673.9991,"EPDM",0.3335007
673.9991,"Polystyrene",0.09986053
673.9991,"Polyethylene",0.004229578
673.9991,"Sample: Shopping bag",0.04128716
674.4813,"EPDM",0.3301086
674.4813,"Polystyrene",0.1004729
674.4813,"Polyethylene",0.004175824
674.4813,"Sample: Shopping bag",0.04115375
674.9634,"EPDM",0.3271327
674.9634,"Polystyrene",0.1011121
674.9634,"Polyethylene",0.004125285
674.9634,"Sample: Shopping bag",0.04104228
675.4455,"EPDM",0.3245589
675.4455,"Polystyrene",0.1017724
675.4455,"Polyethylene",0.004078197
675.4455,"Sample: Shopping bag",0.04094906
675.9276,"EPDM",0.3223794
675.9276,"Polystyrene",0.1024457
675.9276,"Polyethylene",0.004036129
675.9276,"Sample: Shopping bag",0.04087178
676.4097,"EPDM",0.3205873
676.4097,"Polystyrene",0.1031199
676.4097,"Polyethylene",0.00400181
676.4097,"Sample: Shopping bag",0.04080979
676.8918,"EPDM",0.3191634
676.8918,"Polystyrene",0.1037785
676.8918,"Polyethylene",0.003977507
676.8918,"Sample: Shopping bag",0.04076343
677.374,"EPDM",0.3180639
677.374,"Polystyrene",0.1044009
677.374,"Polyethylene",0.003964327
677.374,"Sample: Shopping bag",0.04073143
677.8561,"EPDM",0.3172246
677.8561,"Polystyrene",0.1049664
677.8561,"Polyethylene",0.003961223
677.8561,"Sample: Shopping bag",0.04070932
678.3382,"EPDM",0.3165748
678.3382,"Polystyrene",0.1054578
678.3382,"Polyethylene",0.003966009
678.3382,"Sample: Shopping bag",0.0406898
678.8203,"EPDM",0.316054
678.8203,"Polystyrene",0.1058656
678.8203,"Polyethylene",0.003975994
678.8203,"Sample: Shopping bag",0.04066414
679.3024,"EPDM",0.3156202
679.3024,"Polystyrene",0.1061908
679.3024,"Polyethylene",0.003989092
679.3024,"Sample: Shopping bag",0.04062589
679.7845,"EPDM",0.3152503
679.7845,"Polystyrene",0.1064438
679.7845,"Polyethylene",0.004004237
679.7845,"Sample: Shopping bag",0.04057377
680.2667,"EPDM",0.3149271
680.2667,"Polystyrene",0.1066432
680.2667,"Polyethylene",0.004021843
680.2667,"Sample: Shopping bag",0.04051291
680.7488,"EPDM",0.31463
680.7488,"Polystyrene",0.1068114
680.7488,"Polyethylene",0.004042285
680.7488,"Sample: Shopping bag",0.04045221
681.2309,"EPDM",0.3143316
681.2309,"Polystyrene",0.1069703
681.2309,"Polyethylene",0.004065454
681.2309,"Sample: Shopping bag",0.04040103
681.713,"EPDM",0.3140065
681.713,"Polystyrene",0.1071387
681.713,"Polyethylene",0.004090027
681.713,"Sample: Shopping bag",0.04036567
682.1951,"EPDM",0.3136436
682.1951,"Polystyrene",0.1073299
682.1951,"Polyethylene",0.00411388
682.1951,"Sample: Shopping bag",0.04034676
682.6772,"EPDM",0.3132548
682.6772,"Polystyrene",0.1075527
682.6772,"Polyethylene",0.004134811
682.6772,"Sample: Shopping bag",0.0403409
683.1594,"EPDM",0.3128722
683.1594,"Polystyrene",0.1078117
683.1594,"Polyethylene",0.004151921
683.1594,"Sample: Shopping bag",0.04034302
683.6415,"EPDM",0.3125332
683.6415,"Polystyrene",0.1081086
683.6415,"Polyethylene",0.004165933
683.6415,"Sample: Shopping bag",0.04034996
684.1236,"EPDM",0.3122627
684.1236,"Polystyrene",0.1084441
684.1236,"Polyethylene",0.004178745
684.1236,"Sample: Shopping bag",0.04036165
684.6057,"EPDM",0.312057
684.6057,"Polystyrene",0.1088184
684.6057,"Polyethylene",0.004192357
684.6057,"Sample: Shopping bag",0.04038069
685.0878,"EPDM",0.3118812
685.0878,"Polystyrene",0.1092316
685.0878,"Polyethylene",0.004206792
685.0878,"Sample: Shopping bag",0.0404088
685.5699,"EPDM",0.3116818
685.5699,"Polystyrene",0.1096841
685.5699,"Polyethylene",0.004219543
685.5699,"Sample: Shopping bag",0.04044491
686.0521,"EPDM",0.3114048
686.0521,"Polystyrene",0.1101757
686.0521,"Polyethylene",0.004225723
686.0521,"Sample: Shopping bag",0.04048358
686.5342,"EPDM",0.3110123
686.5342,"Polystyrene",0.1107053
686.5342,"Polyethylene",0.004220318
686.5342,"Sample: Shopping bag",0.04051691
687.0163,"EPDM",0.3104873
687.0163,"Polystyrene",0.1112705
687.0163,"Polyethylene",0.004200421
687.0163,"Sample: Shopping bag",0.04053832
687.4984,"EPDM",0.3098268
687.4984,"Polystyrene",0.1118676
687.4984,"Polyethylene",0.004167342
687.4984,"Sample: Shopping bag",0.04054585
687.9805,"EPDM",0.3090266
687.9805,"Polystyrene",0.1124918
687.9805,"Polyethylene",0.004127844
687.9805,"Sample: Shopping bag",0.04054262
688.4626,"EPDM",0.3080687
688.4626,"Polystyrene",0.1131386
688.4626,"Polyethylene",0.004091463
688.4626,"Sample: Shopping bag",0.04053577
688.9448,"EPDM",0.3069182
688.9448,"Polystyrene",0.1138057
688.9448,"Polyethylene",0.004068534
688.9448,"Sample: Shopping bag",0.04053115
689.4269,"EPDM",0.3055321
[...]
3930.697,"EPDM",0.1114636
3930.697,"Polystyrene",0.0686425
3930.697,"Polyethylene",0.000506553
3930.697,"Sample: Shopping bag",0.06509377
3931.179,"EPDM",0.1113822
3931.179,"Polystyrene",0.06864795
3931.179,"Polyethylene",0.000519083
3931.179,"Sample: Shopping bag",0.06512084
3931.662,"EPDM",0.1113077
3931.662,"Polystyrene",0.06863698
3931.662,"Polyethylene",0.000549483
3931.662,"Sample: Shopping bag",0.06511205
3932.144,"EPDM",0.1112549
3932.144,"Polystyrene",0.06861976
3932.144,"Polyethylene",0.00059206
3932.144,"Sample: Shopping bag",0.06506617
3932.626,"EPDM",0.1112392
3932.626,"Polystyrene",0.06860755
3932.626,"Polyethylene",0.000640864
3932.626,"Sample: Shopping bag",0.06499197
3933.108,"EPDM",0.1112762
3933.108,"Polystyrene",0.06861338
3933.108,"Polyethylene",0.000688903
3933.108,"Sample: Shopping bag",0.06490613
3933.59,"EPDM",0.1113715
3933.59,"Polystyrene",0.06864486
3933.59,"Polyethylene",0.000732292
3933.59,"Sample: Shopping bag",0.06482799
3934.072,"EPDM",0.1115195
3934.072,"Polystyrene",0.06870239
3934.072,"Polyethylene",0.000772196
3934.072,"Sample: Shopping bag",0.06477351
3934.554,"EPDM",0.1117022
3934.554,"Polystyrene",0.06877922
3934.554,"Polyethylene",0.000810817
3934.554,"Sample: Shopping bag",0.06475152
3935.036,"EPDM",0.1118939
3935.036,"Polystyrene",0.06886434
3935.036,"Polyethylene",0.000848926
3935.036,"Sample: Shopping bag",0.0647596
3935.519,"EPDM",0.1120692
3935.519,"Polystyrene",0.06894432
3935.519,"Polyethylene",0.000887695
3935.519,"Sample: Shopping bag",0.06478825
3936,"EPDM",0.1122105
3936,"Polystyrene",0.06901183
3936,"Polyethylene",0.000922845
3936,"Sample: Shopping bag",0.06482381
3936.483,"EPDM",0.1123062
3936.483,"Polystyrene",0.06906171
3936.483,"Polyethylene",0.000948929
3936.483,"Sample: Shopping bag",0.06485141
3936.965,"EPDM",0.1123567
3936.965,"Polystyrene",0.0690957
3936.965,"Polyethylene",0.000959722
3936.965,"Sample: Shopping bag",0.06486247
3937.447,"EPDM",0.1123662
3937.447,"Polystyrene",0.06911504
3937.447,"Polyethylene",0.000950288
3937.447,"Sample: Shopping bag",0.06485347
3937.929,"EPDM",0.1123442
3937.929,"Polystyrene",0.06912689
3937.929,"Polyethylene",0.000919975
3937.929,"Sample: Shopping bag",0.06483201
3938.411,"EPDM",0.1122935
3938.411,"Polystyrene",0.06913168
3938.411,"Polyethylene",0.000872535
3938.411,"Sample: Shopping bag",0.06480727
3938.893,"EPDM",0.112219
3938.893,"Polystyrene",0.06913281
3938.893,"Polyethylene",0.000811856
3938.893,"Sample: Shopping bag",0.06479406
3939.375,"EPDM",0.1121214
3939.375,"Polystyrene",0.06913067
3939.375,"Polyethylene",0.000743771
3939.375,"Sample: Shopping bag",0.06480376
3939.857,"EPDM",0.1120059
3939.857,"Polystyrene",0.06912866
3939.857,"Polyethylene",0.000674115
3939.857,"Sample: Shopping bag",0.06484423
3940.34,"EPDM",0.111877
3940.34,"Polystyrene",0.06912747
3940.34,"Polyethylene",0.000606132
3940.34,"Sample: Shopping bag",0.06491386
3940.822,"EPDM",0.1117456
3940.822,"Polystyrene",0.06913009
3940.822,"Polyethylene",0.000543454
3940.822,"Sample: Shopping bag",0.06500345
3941.304,"EPDM",0.1116227
3941.304,"Polystyrene",0.0691361
3941.304,"Polyethylene",0.000490107
3941.304,"Sample: Shopping bag",0.06509782
3941.786,"EPDM",0.1115192
3941.786,"Polystyrene",0.0691436
3941.786,"Polyethylene",0.00045232
3941.786,"Sample: Shopping bag",0.06517836
3942.268,"EPDM",0.1114414
3942.268,"Polystyrene",0.06914539
3942.268,"Polyethylene",0.000437627
3942.268,"Sample: Shopping bag",0.0652288
3942.75,"EPDM",0.1113949
3942.75,"Polystyrene",0.06913779
3942.75,"Polyethylene",0.000452006
3942.75,"Sample: Shopping bag",0.06524316
3943.232,"EPDM",0.1113769
3943.232,"Polystyrene",0.06911755
3943.232,"Polyethylene",0.000496503
3943.232,"Sample: Shopping bag",0.06522305
3943.714,"EPDM",0.1113859
3943.714,"Polystyrene",0.06908982
3943.714,"Polyethylene",0.000565168
3943.714,"Sample: Shopping bag",0.06518432
3944.197,"EPDM",0.1114135
3944.197,"Polystyrene",0.06906029
3944.197,"Polyethylene",0.000644499
3944.197,"Sample: Shopping bag",0.06514559
3944.679,"EPDM",0.1114525
3944.679,"Polystyrene",0.06903934
3944.679,"Polyethylene",0.000716446
3944.679,"Sample: Shopping bag",0.06512614
3945.161,"EPDM",0.1114955
3945.161,"Polystyrene",0.06903513
3945.161,"Polyethylene",0.000762566
3945.161,"Sample: Shopping bag",0.06514061
3945.643,"EPDM",0.1115344
3945.643,"Polystyrene",0.06905132
3945.643,"Polyethylene",0.00077102
3945.643,"Sample: Shopping bag",0.06519488
3946.125,"EPDM",0.1115616
3946.125,"Polystyrene",0.06908126
3946.125,"Polyethylene",0.000742318
3946.125,"Sample: Shopping bag",0.06528012
3946.607,"EPDM",0.1115727
3946.607,"Polystyrene",0.06911612
3946.607,"Polyethylene",0.0006845
3946.607,"Sample: Shopping bag",0.06538211
3947.089,"EPDM",0.111566
3947.089,"Polystyrene",0.06914403
3947.089,"Polyethylene",0.000615752
3947.089,"Sample: Shopping bag",0.06547937
3947.571,"EPDM",0.1115468
3947.571,"Polystyrene",0.06915711
3947.571,"Polyethylene",0.000555831
3947.571,"Sample: Shopping bag",0.06555191
3948.053,"EPDM",0.111523
3948.053,"Polystyrene",0.06915479
3948.053,"Polyethylene",0.000518512
3948.053,"Sample: Shopping bag",0.06558669
3948.536,"EPDM",0.1115077
3948.536,"Polystyrene",0.0691473
3948.536,"Polyethylene",0.000507444
3948.536,"Sample: Shopping bag",0.06558165
3949.018,"EPDM",0.1115104
3949.018,"Polystyrene",0.06914675
3949.018,"Polyethylene",0.000518216
3949.018,"Sample: Shopping bag",0.06554195
3949.5,"EPDM",0.1115356
3949.5,"Polystyrene",0.06916691
3949.5,"Polyethylene",0.00053783
3949.5,"Sample: Shopping bag",0.06547911
3949.982,"EPDM",0.1115804
3949.982,"Polystyrene",0.06921446
3949.982,"Polyethylene",0.00055368
3949.982,"Sample: Shopping bag",0.06540824
3950.464,"EPDM",0.1116379
3950.464,"Polystyrene",0.06928792
3950.464,"Polyethylene",0.000557436
3950.464,"Sample: Shopping bag",0.06534062
3950.946,"EPDM",0.1116991
3950.946,"Polystyrene",0.06937557
3950.946,"Polyethylene",0.000547797
3950.946,"Sample: Shopping bag",0.06528305
3951.428,"EPDM",0.1117586
3951.428,"Polystyrene",0.0694627
3951.428,"Polyethylene",0.000531131
3951.428,"Sample: Shopping bag",0.06524137
3951.91,"EPDM",0.1118112
3951.91,"Polystyrene",0.06953158
3951.91,"Polyethylene",0.000518365
3951.91,"Sample: Shopping bag",0.06521355
3952.393,"EPDM",0.1118607
3952.393,"Polystyrene",0.06957348
3952.393,"Polyethylene",0.000515874
3952.393,"Sample: Shopping bag",0.06519757
3952.875,"EPDM",0.1119097
3952.875,"Polystyrene",0.06958387
3952.875,"Polyethylene",0.000527046
3952.875,"Sample: Shopping bag",0.06518961
3953.357,"EPDM",0.1119623
3953.357,"Polystyrene",0.06956917
3953.357,"Polyethylene",0.000546683
3953.357,"Sample: Shopping bag",0.06518613
3953.839,"EPDM",0.1120172
3953.839,"Polystyrene",0.06953672
3953.839,"Polyethylene",0.000569316
3953.839,"Sample: Shopping bag",0.06518279
3954.321,"EPDM",0.1120742
3954.321,"Polystyrene",0.06949922
3954.321,"Polyethylene",0.000586229
3954.321,"Sample: Shopping bag",0.0651793
3954.803,"EPDM",0.1121265
3954.803,"Polystyrene",0.06946404
3954.803,"Polyethylene",0.000592599
3954.803,"Sample: Shopping bag",0.06517418
3955.285,"EPDM",0.1121717
3955.285,"Polystyrene",0.06943756
3955.285,"Polyethylene",0.000590768
3955.285,"Sample: Shopping bag",0.06517056
3955.767,"EPDM",0.1122056
3955.767,"Polystyrene",0.06942092
3955.767,"Polyethylene",0.000587763
3955.767,"Sample: Shopping bag",0.06517019
3956.25,"EPDM",0.1122297
3956.25,"Polystyrene",0.06941628
3956.25,"Polyethylene",0.000589706
3956.25,"Sample: Shopping bag",0.06517719
3956.732,"EPDM",0.1122422
3956.732,"Polystyrene",0.06942064
3956.732,"Polyethylene",0.000603636
3956.732,"Sample: Shopping bag",0.06519331
3957.214,"EPDM",0.1122439
3957.214,"Polystyrene",0.06943388
3957.214,"Polyethylene",0.000630206
3957.214,"Sample: Shopping bag",0.06521909
3957.696,"EPDM",0.1122305
3957.696,"Polystyrene",0.06944998
3957.696,"Polyethylene",0.000667859
3957.696,"Sample: Shopping bag",0.06525005
3958.178,"EPDM",0.1122013
3958.178,"Polystyrene",0.06946678
3958.178,"Polyethylene",0.000708911
3958.178,"Sample: Shopping bag",0.0652832
3958.66,"EPDM",0.1121538
3958.66,"Polystyrene",0.06947947
3958.66,"Polyethylene",0.000748277
3958.66,"Sample: Shopping bag",0.06531282
3959.142,"EPDM",0.1120913
3959.142,"Polystyrene",0.06948561
3959.142,"Polyethylene",0.000780747
3959.142,"Sample: Shopping bag",0.06533535
3959.624,"EPDM",0.1120198
3959.624,"Polystyrene",0.06948274
3959.624,"Polyethylene",0.000807097
3959.624,"Sample: Shopping bag",0.06534835
3960.106,"EPDM",0.1119514
3960.106,"Polystyrene",0.06947371
3960.106,"Polyethylene",0.000827193
3960.106,"Sample: Shopping bag",0.0653533
3960.589,"EPDM",0.1118951
3960.589,"Polystyrene",0.06946141
3960.589,"Polyethylene",0.000844167
3960.589,"Sample: Shopping bag",0.06535118
3961.071,"EPDM",0.1118592
3961.071,"Polystyrene",0.06945099
3961.071,"Polyethylene",0.000858275
3961.071,"Sample: Shopping bag",0.06534468
3961.553,"EPDM",0.1118455
3961.553,"Polystyrene",0.069447
3961.553,"Polyethylene",0.000870039
3961.553,"Sample: Shopping bag",0.06533573
3962.035,"EPDM",0.1118514
3962.035,"Polystyrene",0.06945094
3962.035,"Polyethylene",0.000877893
3962.035,"Sample: Shopping bag",0.06532608
3962.517,"EPDM",0.1118696
3962.517,"Polystyrene",0.06946132
3962.517,"Polyethylene",0.00088405
3962.517,"Sample: Shopping bag",0.06531522
3962.999,"EPDM",0.1118958
3962.999,"Polystyrene",0.0694766
3962.999,"Polyethylene",0.000889298
3962.999,"Sample: Shopping bag",0.06530529
3963.481,"EPDM",0.1119233
3963.481,"Polystyrene",0.06949025
3963.481,"Polyethylene",0.000896893
3963.481,"Sample: Shopping bag",0.06529715
3963.963,"EPDM",0.1119526
3963.963,"Polystyrene",0.06950199
3963.963,"Polyethylene",0.000908931
3963.963,"Sample: Shopping bag",0.06529309
3964.446,"EPDM",0.1119836
3964.446,"Polystyrene",0.0695103
3964.446,"Polyethylene",0.000924495
3964.446,"Sample: Shopping bag",0.06529557
3964.927,"EPDM",0.1120183
3964.927,"Polystyrene",0.06952012
3964.927,"Polyethylene",0.000936668
3964.927,"Sample: Shopping bag",0.06530623
3965.41,"EPDM",0.1120564
3965.41,"Polystyrene",0.06953569
3965.41,"Polyethylene",0.000937487
3965.41,"Sample: Shopping bag",0.06532715
3965.892,"EPDM",0.1120966
3965.892,"Polystyrene",0.0695633
3965.892,"Polyethylene",0.000916234
3965.892,"Sample: Shopping bag",0.06535802
3966.374,"EPDM",0.1121376
3966.374,"Polystyrene",0.06960665
3966.374,"Polyethylene",0.00086494
3966.374,"Sample: Shopping bag",0.06539886
3966.856,"EPDM",0.1121798
3966.856,"Polystyrene",0.06966931
3966.856,"Polyethylene",0.000784641
3966.856,"Sample: Shopping bag",0.06545021
3967.338,"EPDM",0.1122228
3967.338,"Polystyrene",0.06974635
3967.338,"Polyethylene",0.000681466
3967.338,"Sample: Shopping bag",0.06551116
3967.82,"EPDM",0.1122713
3967.82,"Polystyrene",0.06983313
3967.82,"Polyethylene",0.000569915
3967.82,"Sample: Shopping bag",0.06558044
3968.302,"EPDM",0.1123244
3968.302,"Polystyrene",0.06991871
3968.302,"Polyethylene",0.000466049
3968.302,"Sample: Shopping bag",0.06565329
3968.784,"EPDM",0.1123824
3968.784,"Polystyrene",0.06999417
3968.784,"Polyethylene",0.000382809
3968.784,"Sample: Shopping bag",0.06572506
3969.267,"EPDM",0.1124365
3969.267,"Polystyrene",0.07004719
3969.267,"Polyethylene",0.000329079
3969.267,"Sample: Shopping bag",0.06578482
3969.749,"EPDM",0.1124798
3969.749,"Polystyrene",0.07007187
3969.749,"Polyethylene",0.000305259
3969.749,"Sample: Shopping bag",0.06582466
3970.231,"EPDM",0.112503
3970.231,"Polystyrene",0.07006394
3970.231,"Polyethylene",0.00030587
3970.231,"Sample: Shopping bag",0.06583716
3970.713,"EPDM",0.1125026
3970.713,"Polystyrene",0.07002859
3970.713,"Polyethylene",0.000325172
3970.713,"Sample: Shopping bag",0.06582178
3971.195,"EPDM",0.1124782
3971.195,"Polystyrene",0.06997077
3971.195,"Polyethylene",0.000355983
3971.195,"Sample: Shopping bag",0.06578043
3971.677,"EPDM",0.1124379
3971.677,"Polystyrene",0.06990444
3971.677,"Polyethylene",0.000393206
3971.677,"Sample: Shopping bag",0.06572429
3972.159,"EPDM",0.1123905
3972.159,"Polystyrene",0.0698403
3972.159,"Polyethylene",0.000432923
3972.159,"Sample: Shopping bag",0.06566474
3972.641,"EPDM",0.1123449
3972.641,"Polystyrene",0.06979038
3972.641,"Polyethylene",0.000473047
3972.641,"Sample: Shopping bag",0.06561472
3973.124,"EPDM",0.112308
3973.124,"Polystyrene",0.06976046
3973.124,"Polyethylene",0.000509253
3973.124,"Sample: Shopping bag",0.06558125
3973.606,"EPDM",0.1122795
3973.606,"Polystyrene",0.06975358
3973.606,"Polyethylene",0.000534614
3973.606,"Sample: Shopping bag",0.06556966
3974.088,"EPDM",0.1122577
3974.088,"Polystyrene",0.06976575
3974.088,"Polyethylene",0.000545329
3974.088,"Sample: Shopping bag",0.06557789
3974.57,"EPDM",0.1122409
3974.57,"Polystyrene",0.06979258
3974.57,"Polyethylene",0.000539036
3974.57,"Sample: Shopping bag",0.06560376
3975.052,"EPDM",0.1122272
3975.052,"Polystyrene",0.06982697
3975.052,"Polyethylene",0.000519526
3975.052,"Sample: Shopping bag",0.06564373
3975.534,"EPDM",0.1122184
3975.534,"Polystyrene",0.06986438
3975.534,"Polyethylene",0.000495693
3975.534,"Sample: Shopping bag",0.06569425
3976.016,"EPDM",0.112217
3976.016,"Polystyrene",0.06990179
3976.016,"Polyethylene",0.000477091
3976.016,"Sample: Shopping bag",0.06575422
3976.498,"EPDM",0.1122257
3976.498,"Polystyrene",0.06993949
3976.498,"Polyethylene",0.000473799
3976.498,"Sample: Shopping bag",0.06582077
3976.98,"EPDM",0.1122407
3976.98,"Polystyrene",0.06997666
3976.98,"Polyethylene",0.000490012
3976.98,"Sample: Shopping bag",0.06588995
3977.463,"EPDM",0.1122585
3977.463,"Polystyrene",0.07001492
3977.463,"Polyethylene",0.00052181
3977.463,"Sample: Shopping bag",0.06595504
3977.945,"EPDM",0.1122723
3977.945,"Polystyrene",0.07005415
3977.945,"Polyethylene",0.000557674
3977.945,"Sample: Shopping bag",0.06600699
3978.427,"EPDM",0.112278
3978.427,"Polystyrene",0.07009312
3978.427,"Polyethylene",0.00058543
3978.427,"Sample: Shopping bag",0.06603745
3978.909,"EPDM",0.112274
3978.909,"Polystyrene",0.07012935
3978.909,"Polyethylene",0.000594724
3978.909,"Sample: Shopping bag",0.06603805
3979.391,"EPDM",0.112265
3979.391,"Polystyrene",0.07016105
3979.391,"Polyethylene",0.000581618
3979.391,"Sample: Shopping bag",0.06600852
3979.873,"EPDM",0.1122584
3979.873,"Polystyrene",0.07018713
3979.873,"Polyethylene",0.000554099
3979.873,"Sample: Shopping bag",0.06595213
3980.355,"EPDM",0.1122619
3980.355,"Polystyrene",0.07020716
3980.355,"Polyethylene",0.000523167
3980.355,"Sample: Shopping bag",0.06587858
3980.837,"EPDM",0.1122779
3980.837,"Polystyrene",0.07022158
3980.837,"Polyethylene",0.000507298
3980.837,"Sample: Shopping bag",0.06580038
3981.32,"EPDM",0.1123063
3981.32,"Polystyrene",0.0702342
3981.32,"Polyethylene",0.000517765
3981.32,"Sample: Shopping bag",0.06573106
3981.802,"EPDM",0.1123418
3981.802,"Polystyrene",0.07024532
3981.802,"Polyethylene",0.00055786
3981.802,"Sample: Shopping bag",0.06568174
3982.284,"EPDM",0.1123777
3982.284,"Polystyrene",0.07025767
3982.284,"Polyethylene",0.000622744
3982.284,"Sample: Shopping bag",0.06565803
3982.766,"EPDM",0.1124065
3982.766,"Polystyrene",0.07026851
3982.766,"Polyethylene",0.000698001
3982.766,"Sample: Shopping bag",0.0656605
3983.248,"EPDM",0.112426
3983.248,"Polystyrene",0.07027716
3983.248,"Polyethylene",0.000765281
3983.248,"Sample: Shopping bag",0.06568367
3983.73,"EPDM",0.1124343
3983.73,"Polystyrene",0.07027604
3983.73,"Polyethylene",0.000806608
3983.73,"Sample: Shopping bag",0.06571753
3984.212,"EPDM",0.1124338
3984.212,"Polystyrene",0.0702631
3984.212,"Polyethylene",0.000809124
3984.212,"Sample: Shopping bag",0.06575263
3984.694,"EPDM",0.1124239
3984.694,"Polystyrene",0.07023297
3984.694,"Polyethylene",0.000769658
3984.694,"Sample: Shopping bag",0.06577732
3985.177,"EPDM",0.1124076
3985.177,"Polystyrene",0.07018948
3985.177,"Polyethylene",0.000691085
3985.177,"Sample: Shopping bag",0.0657883
3985.659,"EPDM",0.1123851
3985.659,"Polystyrene",0.07013816
3985.659,"Polyethylene",0.00058534
3985.659,"Sample: Shopping bag",0.06578487
3986.141,"EPDM",0.1123588
3986.141,"Polystyrene",0.07008969
3986.141,"Polyethylene",0.000470654
3986.141,"Sample: Shopping bag",0.06577238
3986.623,"EPDM",0.1123318
3986.623,"Polystyrene",0.07005388
3986.623,"Polyethylene",0.000363428
3986.623,"Sample: Shopping bag",0.06576031
3987.105,"EPDM",0.1123109
3987.105,"Polystyrene",0.07004075
3987.105,"Polyethylene",0.000281117
3987.105,"Sample: Shopping bag",0.06575893
3987.587,"EPDM",0.1123013
3987.587,"Polystyrene",0.0700535
3987.587,"Polyethylene",0.000231728
3987.587,"Sample: Shopping bag",0.06577828
3988.069,"EPDM",0.1123091
3988.069,"Polystyrene",0.07009058
3988.069,"Polyethylene",0.000218818
3988.069,"Sample: Shopping bag",0.06582301
3988.551,"EPDM",0.1123338
3988.551,"Polystyrene",0.07014268
3988.551,"Polyethylene",0.000237673
3988.551,"Sample: Shopping bag",0.06589191
3989.033,"EPDM",0.1123728
3989.033,"Polystyrene",0.0702014
3989.033,"Polyethylene",0.000274911
3989.033,"Sample: Shopping bag",0.06598131
3989.516,"EPDM",0.1124169
3989.516,"Polystyrene",0.07025585
3989.516,"Polyethylene",0.000315312
3989.516,"Sample: Shopping bag",0.06607922
3989.998,"EPDM",0.1124596
3989.998,"Polystyrene",0.07030344
3989.998,"Polyethylene",0.000346924
3989.998,"Sample: Shopping bag",0.06617744
3990.48,"EPDM",0.1124913
3990.48,"Polystyrene",0.07034209
3990.48,"Polyethylene",0.000361995
3990.48,"Sample: Shopping bag",0.06626388
3990.962,"EPDM",0.1125088
3990.962,"Polystyrene",0.07037635
3990.962,"Polyethylene",0.00036078
3990.962,"Sample: Shopping bag",0.06633193
3991.444,"EPDM",0.1125097
3991.444,"Polystyrene",0.07040964
3991.444,"Polyethylene",0.000350764
3991.444,"Sample: Shopping bag",0.06637678
3991.926,"EPDM",0.1124959
3991.926,"Polystyrene",0.07044555
3991.926,"Polyethylene",0.000340748
3991.926,"Sample: Shopping bag",0.06639963
3992.408,"EPDM",0.1124694
3992.408,"Polystyrene",0.07048107
3992.408,"Polyethylene",0.000340582
3992.408,"Sample: Shopping bag",0.0664016
3992.89,"EPDM",0.1124356
3992.89,"Polystyrene",0.07051438
3992.89,"Polyethylene",0.000351062
3992.89,"Sample: Shopping bag",0.06638845
3993.373,"EPDM",0.1123986
3993.373,"Polystyrene",0.07053944
3993.373,"Polyethylene",0.000368116
3993.373,"Sample: Shopping bag",0.0663665
3993.854,"EPDM",0.1123657
3993.854,"Polystyrene",0.07055566
3993.854,"Polyethylene",0.000380576
3993.854,"Sample: Shopping bag",0.06634261
3994.337,"EPDM",0.112345
3994.337,"Polystyrene",0.07056142
3994.337,"Polyethylene",0.000377524
3994.337,"Sample: Shopping bag",0.0663238
3994.819,"EPDM",0.112344
3994.819,"Polystyrene",0.0705625
3994.819,"Polyethylene",0.000350012
3994.819,"Sample: Shopping bag",0.06631544
3995.301,"EPDM",0.1123666
3995.301,"Polystyrene",0.07056164
3995.301,"Polyethylene",0.000296857
3995.301,"Sample: Shopping bag",0.06631905
3995.783,"EPDM",0.1124148
3995.783,"Polystyrene",0.07056394
3995.783,"Polyethylene",0.000224358
3995.783,"Sample: Shopping bag",0.06633447
3996.265,"EPDM",0.1124813
3996.265,"Polystyrene",0.07056901
3996.265,"Polyethylene",0.00014685
3996.265,"Sample: Shopping bag",0.06635872
3996.747,"EPDM",0.1125573
3996.747,"Polystyrene",0.07057656
3996.747,"Polyethylene",7.67e-05
3996.747,"Sample: Shopping bag",0.06638598
3997.229,"EPDM",0.112631
3997.229,"Polystyrene",0.07058343
3997.229,"Polyethylene",2.61e-05
3997.229,"Sample: Shopping bag",0.06641092
3997.711,"EPDM",0.1126915
3997.711,"Polystyrene",0.07058834
3997.711,"Polyethylene",0
3997.711,"Sample: Shopping bag",0.06642732
3998.194,"EPDM",0.1127322
3998.194,"Polystyrene",0.07059066
3998.194,"Polyethylene",5.82e-07
3998.194,"Sample: Shopping bag",0.06643038
3998.676,"EPDM",0.1127529
3998.676,"Polystyrene",0.07059378
3998.676,"Polyethylene",2.42e-05
3998.676,"Sample: Shopping bag",0.0664198
3999.158,"EPDM",0.112755
3999.158,"Polystyrene",0.0705994
3999.158,"Polyethylene",6.7e-05
3999.158,"Sample: Shopping bag",0.06639505
3999.64,"EPDM",0.1127439
3999.64,"Polystyrene",0.07061107
3999.64,"Polyethylene",0.000124873
3999.64,"Sample: Shopping bag",0.06635968
4000.122,"EPDM",0.1127215
4000.122,"Polystyrene",0.07062594
4000.122,"Polyethylene",0.000194715
4000.122,"Sample: Shopping bag",0.06631783